File: Stress and Strain Analysis with Matplotlib/Cast Iron.csv
Time (sec),Extension (in),Load (lbf),Strain 1 (%)
0.00,0.00,-0.02,0.00
0.30,0.00,0.16,0.00
0.60,0.00,0.03,0.00
0.90,0.00,0.23,0.00
1.20,0.00,0.02,0.00
1.50,0.00,0.21,0.00
1.80,0.00,0.23,0.00
2.10,0.00,0.43,0.00
2.40,0.00,2.88,0.00
2.70,0.00,10.78,0.00
3.00,0.01,22.95,0.00
3.30,0.01,40.14,0.00
3.60,0.01,62.32,0.00
3.90,0.01,87.77,0.00
4.20,0.01,115.18,0.00
4.50,0.01,145.33,0.00
4.80,0.01,177.32,0.00
5.10,0.01,210.92,0.00
5.40,0.01,246.39,0.00
5.70,0.01,281.28,0.00
6.00,0.01,317.67,0.00
6.30,0.01,354.95,0.00
6.60,0.01,394.45,0.00
6.90,0.01,433.83,0.00
7.20,0.01,474.08,0.00
7.50,0.01,515.54,0.00
7.80,0.01,558.58,0.01
8.10,0.01,602.86,0.01
8.40,0.01,647.54,0.01
8.70,0.01,693.14,0.01
9.00,0.02,739.98,0.01
9.30,0.02,789.28,0.01
9.60,0.02,838.78,0.01
9.90,0.02,888.96,0.01
10.20,0.02,939.86,0.01
10.50,0.02,992.56,0.01
10.80,0.02,1045.93,0.01
11.10,0.02,1100.02,0.01
11.40,0.02,1155.13,0.01
11.70,0.02,1212.13,0.01
12.00,0.02,1269.82,0.02
12.30,0.02,1328.86,0.02
12.60,0.02,1387.43,0.02
12.90,0.02,1447.63,0.02
13.20,0.02,1507.80,0.02
13.50,0.02,1570.25,0.02
13.80,0.02,1632.80,0.02
14.10,0.02,1695.72,0.02
14.40,0.02,1760.12,0.02
14.70,0.02,1825.24,0.02
15.00,0.03,1891.65,0.03
15.30,0.03,1957.63,0.03
15.60,0.03,2024.37,0.03
15.90,0.03,2091.77,0.03
16.20,0.03,2160.59,0.03
16.50,0.03,2229.08,0.03
16.80,0.03,2298.13,0.03
17.10,0.03,2367.56,0.03
17.40,0.03,2438.97,0.04
17.70,0.03,2511.04,0.04
18.00,0.03,2583.30,0.04
18.30,0.03,2656.15,0.04
18.60,0.03,2730.24,0.04
18.90,0.03,2804.93,0.04
19.20,0.03,2879.97,0.04
19.50,0.03,2955.73,0.05
19.80,0.03,3031.31,0.05
20.10,0.03,3108.83,0.05
20.40,0.03,3186.31,0.05
20.70,0.03,3264.77,0.05
21.00,0.03,3342.04,0.05
21.30,0.04,3421.35,0.05
21.60,0.04,3499.88,0.06
21.90,0.04,3580.33,0.06
22.20,0.04,3659.69,0.06
22.50,0.04,3740.75,0.06
22.80,0.04,3821.35,0.06
23.10,0.04,3903.89,0.06
23.40,0.04,3985.76,0.07
23.70,0.04,4067.62,0.07
24.00,0.04,4150.60,0.07
24.30,0.04,4233.21,0.07
24.60,0.04,4317.83,0.07
24.90,0.04,4400.42,0.07
25.20,0.04,4484.38,0.08
25.50,0.04,4567.96,0.08
25.80,0.04,4653.14,0.08
26.10,0.04,4737.59,0.08
26.40,0.04,4822.77,0.08
26.70,0.04,4906.61,0.08
27.00,0.05,4992.73,0.09
27.30,0.05,5078.17,0.09
27.60,0.05,5164.61,0.09
27.90,0.05,5250.30,0.09
28.20,0.05,5335.96,0.09
28.50,0.05,5422.95,0.10
28.80,0.05,5509.96,0.10
29.10,0.05,5596.77,0.10
29.40,0.05,5682.20,0.10
29.70,0.05,5768.96,0.10
30.00,0.05,5854.85,0.11
30.30,0.05,5942.57,0.11
30.60,0.05,6027.21,0.11
30.90,0.05,6113.44,0.11
31.20,0.05,6198.76,0.12
31.50,0.05,6285.71,0.12
31.80,0.05,6369.36,0.12
32.10,0.05,6454.63,0.13
32.40,0.05,6538.44,0.13
32.70,0.05,6623.43,0.13
33.00,0.06,6708.45,0.14
33.30,0.06,6790.55,0.14
33.60,0.06,6873.06,0.14
33.90,0.06,6954.91,0.15
34.20,0.06,7037.55,0.15
34.50,0.06,7117.49,0.15
34.80,0.06,7197.59,0.16
35.10,0.06,7275.10,0.16
35.40,0.06,7354.33,0.17
35.70,0.06,7430.84,0.17
36.00,0.06,7507.45,0.18
36.30,0.06,7580.76,0.18
36.60,0.06,7655.57,0.19
36.90,0.06,7728.22,0.19
37.20,0.06,7800.23,0.20
37.50,0.06,7870.39,0.20
37.80,0.06,7939.44,0.21
38.10,0.06,8008.01,0.22
38.40,0.06,8075.04,0.22
38.70,0.06,8142.41,0.23
39.00,0.06,8206.67,0.24
39.30,0.07,8271.37,0.24
39.60,0.07,8333.16,0.25
39.90,0.07,8395.83,0.26
40.20,0.07,8454.32,0.27
40.50,0.07,8513.60,0.27
40.80,0.07,8570.23,0.28
41.10,0.07,8627.51,0.29
41.40,0.07,8682.24,0.30
41.70,0.07,8735.21,0.31
42.00,0.07,8786.56,0.32
42.30,0.07,8836.78,0.33
42.60,0.07,8886.66,0.34
42.90,0.07,8934.12,0.35
43.20,0.07,8980.94,0.36
43.50,0.07,9025.77,0.37
43.80,0.07,9070.05,0.38
44.10,0.07,9111.83,0.39
44.40,0.07,9153.23,0.40
44.70,0.07,9190.71,0.41
45.00,0.08,9229.09,0.42
45.30,0.08,9265.65,0.43
45.60,0.08,9301.93,0.45
45.90,0.08,9333.85,0.46
46.20,0.08,9366.76,0.47
46.50,0.08,9397.35,0.48
46.80,0.08,9428.84,0.50
47.10,0.08,9456.53,0.51
47.40,0.08,9484.20,0.52
47.70,0.08,9510.53,0.54
48.00,0.08,9536.81,0.55
48.30,0.08,9562.79,0.56
48.60,0.08,9585.20,0.58
48.90,0.08,9608.48,0.59
49.20,0.08,9629.79,0.61
49.50,0.08,9653.32,0.62
49.80,0.08,9673.11,0.64
50.10,0.08,9693.42,0.65
50.40,0.08,9711.38,0.67
50.70,0.08,9731.74,0.68
51.00,0.09,9749.89,0.70
51.30,0.09,9768.01,0.71
51.60,0.09,9784.87,0.73
51.90,0.09,9802.21,0.74
52.20,0.09,9819.15,0.76
52.50,0.09,9835.61,0.78
52.80,0.09,9851.65,0.79
53.10,0.09,9867.49,0.81
53.40,0.09,9883.82,0.82
53.70,0.09,9899.99,0.84
54.00,0.09,9915.44,0.85
54.30,0.09,9930.10,0.87
54.60,0.09,9946.27,0.89
54.90,0.09,9960.35,0.90
55.20,0.09,9977.14,0.92
55.50,0.09,9989.62,0.93
55.80,0.09,10005.38,0.95
56.10,0.09,10019.50,0.97
56.40,0.09,10035.21,0.98
56.70,0.09,10048.38,1.00
57.00,0.10,10062.12,1.01
57.30,0.10,10076.02,1.03
57.60,0.10,10090.52,1.05
57.90,0.10,10105.65,1.06
58.20,0.10,10119.16,1.08
58.50,0.10,10133.25,1.09
58.80,0.10,10146.44,1.11
59.10,0.10,10161.13,1.13
59.40,0.10,10174.36,1.14
59.70,0.10,10188.37,1.16
60.00,0.10,10201.22,1.17
60.30,0.10,10215.49,1.19
60.60,0.10,10229.15,1.21
60.90,0.10,10243.44,1.22
61.20,0.10,10255.61,1.24
61.50,0.10,10269.52,1.25
61.80,0.10,10282.00,1.27
62.10,0.10,10297.30,1.28
62.40,0.10,10310.02,1.30
62.70,0.10,10322.34,1.32
63.00,0.11,10335.65,1.33
63.30,0.11,10349.07,1.35
63.60,0.11,10363.27,1.36
63.90,0.11,10375.81,1.38
64.20,0.11,10389.37,1.40
64.50,0.11,10401.71,1.41
64.80,0.11,10416.43,1.43
65.10,0.11,10427.89,1.44
65.40,0.11,10441.79,1.46
65.70,0.11,10453.06,1.47
66.00,0.11,10467.00,1.49
66.30,0.11,10479.64,1.51
66.60,0.11,10492.36,1.52
66.90,0.11,10504.06,1.54
67.20,0.11,10516.81,1.55
67.50,0.11,10530.57,1.57
67.80,0.11,10543.08,1.58
68.10,0.11,10555.42,1.60
68.40,0.11,10566.75,1.62
68.70,0.11,10581.21,1.63
69.00,0.12,10593.14,1.65
69.30,0.12,10606.72,1.66
69.60,0.12,10617.12,1.68
69.90,0.12,10630.99,1.69
70.20,0.12,10641.97,1.71
70.50,0.12,10655.42,1.72
70.80,0.12,10666.61,1.74
71.10,0.12,10678.77,1.76
71.40,0.12,10690.90,1.77
71.70,0.12,10704.23,1.79
72.00,0.12,10716.38,1.80
72.30,0.12,10726.52,1.82
72.60,0.12,10739.93,1.83
72.90,0.12,10751.09,1.85
73.20,0.12,10764.68,1.87
73.50,0.12,10774.87,1.88
73.80,0.12,10788.10,1.90
74.10,0.12,10798.11,1.91
74.40,0.12,10812.26,1.93
74.70,0.12,10821.86,1.94
75.00,0.13,10834.96,1.96
75.30,0.13,10845.63,1.97
75.60,0.13,10857.88,1.99
75.90,0.13,10869.20,2.00
76.20,0.13,10880.18,2.02
76.50,0.13,10892.29,2.04
76.80,0.13,10903.87,2.05
77.10,0.13,10916.31,2.07
77.40,0.13,10927.33,2.08
77.70,0.13,10939.32,2.10
78.00,0.13,10949.36,2.11
78.30,0.13,10961.25,2.13
78.60,0.13,10971.89,2.14
78.90,0.13,10985.02,2.16
79.20,0.13,10994.55,2.18
79.50,0.13,11007.33,2.19
79.80,0.13,11017.26,2.21
80.10,0.13,11029.50,2.22
80.40,0.13,11039.04,2.24
80.70,0.13,11050.69,2.25
81.00,0.14,11060.73,2.27
81.30,0.14,11072.74,2.28
81.60,0.14,11084.10,2.30
81.90,0.14,11093.92,2.31
82.20,0.14,11105.25,2.33
82.50,0.14,11114.41,2.35
82.80,0.14,11127.13,2.36
83.10,0.14,11137.13,2.38
83.40,0.14,11149.07,2.39
83.70,0.14,11158.02,2.41
84.00,0.14,11169.86,2.42
84.30,0.14,11180.73,2.44
84.60,0.14,11191.93,2.45
84.90,0.14,11200.75,2.47
85.20,0.14,11211.88,2.48
85.50,0.14,11222.15,2.50
85.80,0.14,11232.90,2.52
86.10,0.14,11243.54,2.53
86.40,0.14,11253.52,2.55
86.70,0.14,11264.19,2.56
87.00,0.15,11274.45,2.58
87.30,0.15,11285.64,2.59
87.60,0.15,11294.22,2.61
87.90,0.15,11305.24,2.62
88.20,0.15,11315.03,2.64
88.50,0.15,11327.17,2.66
88.80,0.15,11335.19,2.67
89.10,0.15,11346.16,2.69
89.40,0.15,11355.41,2.70
89.70,0.15,11366.92,2.72
90.00,0.15,11376.00,2.73
90.30,0.15,11385.55,2.75
90.60,0.15,11395.51,2.76
90.90,0.15,11405.11,2.78
91.20,0.15,11416.04,2.79
91.50,0.15,11424.94,2.81
91.80,0.15,11435.24,2.83
92.10,0.15,11444.79,2.84
92.40,0.15,11456.03,2.86
92.70,0.15,11464.59,2.87
93.00,0.16,11474.05,2.89
93.30,0.16,11482.88,2.90
93.60,0.16,11494.18,2.92
93.90,0.16,11503.06,2.94
94.20,0.16,11513.11,2.98
94.50,0.16,11521.34,2.97
94.80,0.16,11531.16,0.54
95.10,0.16,11539.85,0.02
95.40,0.16,11548.37,0.00
95.70,0.16,11558.27,-1.40
96.00,0.16,11567.61,-3.21
96.30,0.16,11577.35,-1.50
96.60,0.16,11587.02,-1.10
96.90,0.16,11596.36,-0.78
97.20,0.16,11604.81,-7.31
97.50,0.16,11614.31,-3.97
97.80,0.16,11622.69,-4.56
98.10,0.16,11633.50,-5.58
98.40,0.16,11641.76,-1.77
98.70,0.16,11650.93,-1.57
99.00,0.17,11659.22,-1.80
99.30,0.17,11668.91,-1.71
99.60,0.17,11677.38,-1.76
99.90,0.17,11686.96,-1.74
100.20,0.17,11695.55,-1.74
100.50,0.17,11703.86,-1.75
100.80,0.17,11713.52,-1.73
101.10,0.17,11721.88,-1.75
101.40,0.17,11730.87,-1.74
101.70,0.17,11738.28,-1.74
102.00,0.17,11748.59,-1.75
102.30,0.17,11756.81,-1.74
102.60,0.17,11766.32,-1.74
102.90,0.17,11773.12,-1.74
103.20,0.17,11782.55,-1.74
103.50,0.17,11790.43,-1.74
103.80,0.17,11800.01,-1.74
104.10,0.17,11807.86,-1.74
104.40,0.17,11816.15,-1.74
104.70,0.17,11824.38,-1.74
105.00,0.18,11833.88,-1.74
105.30,0.18,11842.89,-1.74
105.60,0.18,11849.13,-1.74
105.90,0.18,11858.25,-1.74
106.20,0.18,11866.57,-1.74
106.50,0.18,11876.59,-1.74
106.80,0.18,11883.71,-1.74
107.10,0.18,11892.29,-1.74
107.40,0.18,11898.80,-1.74
107.70,0.18,11908.70,-1.74
108.00,0.18,11915.59,-1.74
108.30,0.18,11923.63,-1.74
108.60,0.18,11931.05,-1.74
108.90,0.18,11940.04,-1.74
109.20,0.18,11948.19,-1.74
109.50,0.18,11955.61,-1.74
109.80,0.18,11963.28,-1.74
110.10,0.18,11971.36,-1.74
110.40,0.18,11980.33,-1.74
110.70,0.18,11987.52,-1.74
111.00,0.19,11995.52,-1.74
111.30,0.19,12002.66,-1.74
111.60,0.19,12011.41,-1.74
111.90,0.19,12018.37,-1.74
112.20,0.19,12026.65,-1.74
112.50,0.19,12033.30,-1.74
112.80,0.19,12042.20,-1.74
113.10,0.19,12048.77,-1.74
113.40,0.19,12057.76,-1.74
113.70,0.19,12063.81,-1.74
114.00,0.19,12071.78,-1.74
114.30,0.19,12078.86,-1.74
114.60,0.19,12087.45,-1.74
114.90,0.19,12094.88,-1.75
115.20,0.19,12101.91,-1.74
115.50,0.19,12109.74,-1.74
115.80,0.19,12116.28,-1.74
116.10,0.19,12124.76,-1.74
116.40,0.19,12131.04,-1.74
116.70,0.19,12139.22,-1.74
117.00,0.20,12145.49,-1.74
117.30,0.20,12154.40,-1.75
117.60,0.20,12160.00,-1.74
117.90,0.20,12168.40,-1.74
118.20,0.20,12173.80,-1.74
118.50,0.20,12182.49,-1.74
118.80,0.20,12189.94,-1.74
119.10,0.20,12197.47,-1.74
119.40,0.20,12203.27,-1.74
119.70,0.20,12210.14,-1.74
120.00,0.20,12217.04,-1.74
120.30,0.20,12224.64,-1.74
120.60,0.20,12232.29,-1.74
120.90,0.20,12238.59,-1.74
121.20,0.20,12246.22,-1.74
121.50,0.20,12252.82,-1.74
121.80,0.20,12260.92,-1.74
122.10,0.20,12266.52,-1.74
122.40,0.20,12274.18,-1.74
122.70,0.20,12279.44,-1.75
123.00,0.21,12287.87,-1.74
123.30,0.21,12293.11,-1.75
123.60,0.21,12300.07,-1.74
123.90,0.21,12305.94,-1.74
124.20,0.21,12313.70,-1.75
124.50,0.21,12321.21,-1.74
124.80,0.21,12326.31,-1.75
125.10,0.21,12333.38,-1.74
125.40,0.21,12339.44,-1.74
125.70,0.21,12347.86,-1.75
126.00,0.21,12353.62,-1.74
126.30,0.21,12359.67,-1.75
126.60,0.21,12365.12,-1.75
126.90,0.21,12373.65,-1.75
127.20,0.21,12379.35,-1.75
127.50,0.21,12386.84,-1.75
127.80,0.21,12391.09,-1.75
128.10,0.21,12398.60,-1.75
128.40,0.21,12404.45,-1.75
128.70,0.21,12410.89,-1.74
129.00,0.22,12416.68,-1.75
129.30,0.22,12422.92,-1.74
129.60,0.22,12429.89,-1.74
129.90,0.22,12436.70,-1.74
130.20,0.22,12442.44,-1.74
130.50,0.22,12448.32,-1.75
130.80,0.22,12454.85,-1.76
131.10,0.22,12460.24,-1.74
131.40,0.22,12468.72,-1.75
131.70,0.22,12472.40,-1.75
132.00,0.22,12479.80,-1.76
132.30,0.22,12484.44,-1.76
132.60,0.22,12492.18,-1.75
132.90,0.22,12497.00,-1.75
133.20,0.22,12503.44,-1.75
133.50,0.22,12508.79,-1.75
133.80,0.22,12515.19,-1.75
134.10,0.22,12522.05,-1.75
134.40,0.22,12527.28,-1.75
134.70,0.22,12533.10,-1.74
135.00,0.23,12538.29,-1.74
135.30,0.23,12545.48,-1.74
135.60,0.23,12550.58,-1.74
135.90,0.23,12557.39,-1.74
136.20,0.23,12561.86,-1.74
136.50,0.23,12569.32,-1.74
136.80,0.23,12573.46,-1.74
137.10,0.23,12580.36,-1.75
137.40,0.23,12583.70,-1.74
137.70,0.23,12590.55,-1.75
138.00,0.23,12595.80,-1.75
138.30,0.23,12602.31,-1.75
138.60,0.23,12607.55,-1.75
138.90,0.23,12612.75,-1.75
139.20,0.23,12618.81,-1.75
139.50,0.23,12624.03,-1.74
139.80,0.23,12630.99,-1.74
140.10,0.23,12634.86,-1.74
140.40,0.23,12641.15,-1.74
140.70,0.23,12645.47,-1.75
141.00,0.24,12652.99,-1.75
141.30,0.24,12657.33,-1.75
141.60,0.24,12663.84,-1.75
141.90,0.24,12667.61,-1.75
142.20,0.24,12674.50,-1.75
142.50,0.24,12679.58,-1.75
142.80,0.24,12684.78,-1.75
143.10,0.24,12689.05,-1.74
143.40,0.24,12694.39,-1.75
143.70,0.24,12700.69,-1.74
144.00,0.24,12705.88,-1.75
144.30,0.24,12711.07,-1.74
144.60,0.24,12715.52,-1.74
144.90,0.24,12721.19,-1.74
145.20,0.24,12726.78,-1.74
145.50,0.24,12732.72,-1.75
145.80,0.24,12736.63,-1.75
146.10,0.24,12742.45,-1.75
146.40,0.24,12748.03,-1.75
146.70,0.24,12754.66,-1.75
147.00,0.25,12757.42,-1.75
147.30,0.25,12762.97,-1.75
147.60,0.25,12767.26,-1.75
147.90,0.25,12773.83,-1.75
148.20,0.25,12777.76,-1.75
148.50,0.25,12782.63,-1.74
148.80,0.25,12787.55,-1.75
149.10,0.25,12793.25,-1.75
149.40,0.25,12799.56,-1.74
149.70,0.25,12802.76,-1.75
150.00,0.25,12808.65,-1.75
150.30,0.25,12811.96,-1.75
150.60,0.25,12819.48,-1.75
150.90,0.25,12822.24,-1.75
151.20,0.25,12828.43,-1.75
151.50,0.25,12831.82,-1.74
151.80,0.25,12838.06,-1.75
152.10,0.25,12842.33,-1.74
152.40,0.25,12846.82,-1.74
152.70,0.25,12851.37,-1.74
153.00,0.26,12855.78,-1.74
153.30,0.26,12860.40,-1.75
153.60,0.26,12865.65,-1.75
153.90,0.26,12869.74,-1.74
154.20,0.26,12873.62,-1.74
154.50,0.26,12879.02,-1.75
154.80,0.26,12883.93,-1.75
155.10,0.26,12889.83,-1.75
155.40,0.26,12893.11,-1.75
155.70,0.26,12899.02,-1.75
156.00,0.26,12902.10,-1.75
156.30,0.26,12908.31,-1.75
156.60,0.26,12910.95,-1.75
156.90,0.26,12916.16,-1.74
157.20,0.26,12920.03,-1.75
157.50,0.26,12925.10,-1.75
157.80,0.26,12929.24,-1.74
158.10,0.26,12933.35,-1.74
158.40,0.26,12938.30,-1.74
158.70,0.26,12941.91,-1.74
159.00,0.27,12947.30,-1.75
159.30,0.27,12951.40,-1.75
159.60,0.27,12956.29,-1.75
159.90,0.27,12959.97,-1.75
160.20,0.27,12965.13,-1.75
160.50,0.27,12968.89,-1.75
160.80,0.27,12974.23,-1.75
161.10,0.27,12977.37,-1.75
161.40,0.27,12981.93,-1.75
161.70,0.27,12986.27,-1.75
162.00,0.27,12990.81,-1.75
162.30,0.27,12994.74,-1.75
162.60,0.27,12998.49,-1.75
162.90,0.27,13002.74,-1.75
163.20,0.27,13008.10,-1.74
163.50,0.27,13012.12,-1.74
163.80,0.27,13015.32,-1.75
164.10,0.27,13019.90,-1.75
164.40,0.27,13024.03,-1.75
164.70,0.27,13029.53,-1.75
165.00,0.28,13032.10,-1.75
165.30,0.28,13036.44,-1.75
165.60,0.28,13039.71,-1.75
165.90,0.28,13045.39,-1.74
166.20,0.28,13048.50,-1.74
166.50,0.28,13052.37,-1.75
166.80,0.28,13055.70,-1.74
167.10,0.28,13060.89,-1.75
167.40,0.28,13065.55,-1.75
167.70,0.28,13068.30,-1.75
168.00,0.28,13072.25,-1.74
168.30,0.28,13076.01,-1.74
168.60,0.28,13080.46,-1.75
168.90,0.28,13083.72,-1.75
169.20,0.28,13088.00,-1.75
169.50,0.28,13090.85,-1.75
169.80,0.28,13096.10,-1.75
170.10,0.28,13100.05,-1.75
170.40,0.28,13104.76,-1.75
170.70,0.28,13106.77,-1.75
171.00,0.29,13111.89,-1.75
171.30,0.29,13114.65,-1.75
171.60,0.29,13119.41,-1.75
171.90,0.29,13122.07,-1.75
172.20,0.29,13126.38,-1.75
172.50,0.29,13129.36,-1.75
172.80,0.29,13134.45,-1.75
173.10,0.29,13137.23,-1.75
173.40,0.29,13140.23,-1.74
173.70,0.29,13144.83,-1.74
174.00,0.29,13147.99,-1.74
174.30,0.29,13153.23,-1.75
174.60,0.29,13155.15,-1.75
174.90,0.29,13160.13,-1.75
175.20,0.29,13162.74,-1.75
175.50,0.29,13167.98,-1.74
175.80,0.29,13170.82,-1.75
176.10,0.29,13175.29,-1.75
176.40,0.29,13177.23,-1.75
176.70,0.29,13181.89,-1.75
177.00,0.30,13184.97,-1.75
177.30,0.30,13188.34,-1.75
177.60,0.30,13191.44,-1.75
177.90,0.30,13194.55,-1.75
178.20,0.30,13199.11,-1.75
178.50,0.30,13202.71,-1.75
178.80,0.30,13206.54,-1.74
179.10,0.30,13209.41,-1.74
179.40,0.30,13213.36,-1.75
179.70,0.30,13216.15,-1.75
180.00,0.30,13220.64,-1.75
180.30,0.30,13222.50,-1.75
180.60,0.30,13226.85,-1.75
180.90,0.30,13229.15,-1.75
181.20,0.30,13234.06,-1.75
181.50,0.30,13236.14,-1.75
181.80,0.30,13239.74,-1.75
182.10,0.30,13242.51,-1.75
182.40,0.30,13246.64,-1.75
182.70,0.30,13249.52,-1.75
183.00,0.31,13252.61,-1.75
183.30,0.31,13255.68,-1.75
183.60,0.31,13258.73,-1.75
183.90,0.31,13263.78,-1.75
184.20,0.31,13265.63,-1.75
184.50,0.31,13270.73,-1.74
184.80,0.31,13271.96,-1.75
185.10,0.31,13276.31,-1.74
185.40,0.31,13278.93,-1.74
185.70,0.31,13282.64,-1.75
186.00,0.31,13283.93,-1.74
186.30,0.31,13288.22,-1.75
186.60,0.31,13290.76,-1.75
186.90,0.31,13295.00,-1.75
187.20,0.31,13297.41,-1.75
187.50,0.31,13300.03,-1.75
187.80,0.31,13303.85,-1.75
188.10,0.31,13307.59,-1.75
188.40,0.31,13310.08,-1.75
188.70,0.31,13312.22,-1.75
189.00,0.32,13316.63,-1.75
189.30,0.32,13318.81,-1.75
189.60,0.32,13323.37,-1.75
189.90,0.32,13324.43,-1.75
190.20,0.32,13328.36,-1.75
190.50,0.32,13330.24,-1.75
190.80,0.32,13335.28,-1.75
191.10,0.32,13337.51,-1.75
191.40,0.32,13340.44,-1.75
191.70,0.32,13343.02,-1.75
192.00,0.32,13346.38,-1.75
192.30,0.32,13349.63,-1.75
192.60,0.32,13352.36,-1.74
192.90,0.32,13355.68,-1.74
193.20,0.32,13357.09,-1.75
193.50,0.32,13362.37,-1.75
193.80,0.32,13363.25,-1.75
194.10,0.32,13367.26,-1.75
194.40,0.32,13368.34,-1.75
194.70,0.32,13372.21,-1.75
195.00,0.33,13374.98,-1.75
195.30,0.33,13378.18,-1.75
195.60,0.33,13380.42,-1.75
195.90,0.33,13383.95,-1.75
196.20,0.33,13386.63,-1.75
196.50,0.33,13389.73,-1.75
196.80,0.33,13392.03,-1.75
197.10,0.33,13393.67,-1.75
197.40,0.33,13397.85,-1.75
197.70,0.33,13399.77,-1.75
198.00,0.33,13403.62,-1.75
198.30,0.33,13405.19,-1.75
198.60,0.33,13409.05,-1.75
198.90,0.33,13409.93,-1.75
199.20,0.33,13415.25,-1.75
199.50,0.33,13415.80,-1.75
199.80,0.33,13419.84,-1.75
200.10,0.33,13420.40,-1.75
200.40,0.33,13425.16,-1.75
200.70,0.33,13426.97,-1.75
201.00,0.34,13429.21,-1.75
201.30,0.34,13431.37,-1.75
201.60,0.34,13432.88,-1.75
201.90,0.34,13437.29,-1.75
202.20,0.34,13439.47,-1.75
202.50,0.34,13442.78,-1.75
202.80,0.34,13444.12,-1.75
203.10,0.34,13447.44,-1.75
203.40,0.34,13450.21,-1.75
203.70,0.34,13454.43,-1.74
204.00,0.34,13454.44,-1.74
204.30,0.34,13458.32,-1.75
204.60,0.34,13459.48,-1.75
204.90,0.34,13463.34,-1.75
205.20,0.34,13464.90,-1.75
205.50,0.34,13467.60,-1.75
205.80,0.34,13469.31,-1.75
206.10,0.34,13473.21,-1.75
206.40,0.34,13474.70,-1.75
206.70,0.34,13476.53,-1.74
207.00,0.35,13479.13,-1.74
207.30,0.35,13480.90,-1.74
207.60,0.35,13485.25,-1.75
207.90,0.35,13486.19,-1.75
208.20,0.35,13489.49,-1.75
208.50,0.35,13490.87,-1.74
208.80,0.35,13495.28,-1.75
209.10,0.35,13496.51,-1.75
209.40,0.35,13498.50,-1.75
209.70,0.35,13499.91,-1.75
210.00,0.35,13503.45,-1.75
210.30,0.35,13505.08,-1.75
210.60,0.35,13507.53,-1.75
210.90,0.35,13509.12,-1.74
211.20,0.35,13511.07,-1.74
211.50,0.35,13514.48,-1.74
211.80,0.35,13516.98,-1.75
212.10,0.35,13519.34,-1.75
212.40,0.35,13520.73,-1.75
212.70,0.35,13523.86,-1.75
213.00,0.36,13526.10,-1.75
213.30,0.36,13528.84,-1.75
213.60,0.36,13529.42,-1.75
213.90,0.36,13532.84,-1.75
214.20,0.36,13534.06,-1.75
214.50,0.36,13537.29,-1.75
214.80,0.36,13538.10,-1.75
215.10,0.36,13540.55,-1.75
215.40,0.36,13542.17,-1.75
215.70,0.36,13545.31,-1.75
216.00,0.36,13547.58,-1.75
216.30,0.36,13549.93,-1.75
216.60,0.36,13551.40,-1.75
216.90,0.36,13553.10,-1.75
217.20,0.36,13556.46,-1.75
217.50,0.36,13557.85,-1.75
217.80,0.36,13560.33,-1.75
218.10,0.36,13561.48,-1.75
218.40,0.36,13564.76,-1.74
218.70,0.36,13566.69,-1.75
219.00,0.37,13569.29,-1.75
219.30,0.37,13569.35,-1.75
219.60,0.37,13572.05,-1.75
219.90,0.37,13573.61,-1.75
220.20,0.37,13576.34,-1.75
220.50,0.37,13577.83,-1.75
220.80,0.37,13580.02,-1.75
221.10,0.37,13582.35,-1.75
221.40,0.37,13585.00,-1.75
221.70,0.37,13586.29,-1.75
222.00,0.37,13587.09,-1.75
222.30,0.37,13589.77,-1.74
222.60,0.37,13591.84,-1.75
222.90,0.37,13595.12,-1.74
223.20,0.37,13595.80,-1.74
223.50,0.37,13598.83,-1.74
223.80,0.37,13598.97,-1.74
224.10,0.37,13603.00,-1.75
224.40,0.37,13604.29,-1.75
224.70,0.37,13605.75,-1.74
225.00,0.38,13606.56,-1.75
225.30,0.38,13609.10,-1.74
225.60,0.38,13611.17,-1.75
225.90,0.38,13612.80,-1.74
226.20,0.38,13614.15,-1.74
226.50,0.38,13615.92,-1.75
226.80,0.38,13619.06,-1.75
227.10,0.38,13620.33,-1.75
227.40,0.38,13622.65,-1.75
227.70,0.38,13623.08,-1.75
228.00,0.38,13626.03,-1.75
228.30,0.38,13627.45,-1.75
228.60,0.38,13630.03,-1.75
228.90,0.38,13630.87,-1.75
229.20,0.38,13633.45,-1.75
229.50,0.38,13634.05,-1.75
229.80,0.38,13637.05,-1.75
230.10,0.38,13637.04,-1.75
230.40,0.38,13639.26,-1.75
230.70,0.38,13640.92,-1.75
231.00,0.39,13643.72,-1.75
231.30,0.39,13645.06,-1.75
231.60,0.39,13646.20,-1.74
231.90,0.39,13648.97,-1.74
232.20,0.39,13649.61,-1.75
232.50,0.39,13653.28,-1.75
232.80,0.39,13652.82,-1.75
233.10,0.39,13656.13,-1.75
233.40,0.39,13656.22,-1.75
233.70,0.39,13659.87,-1.75
234.00,0.39,13660.50,-1.75
234.30,0.39,13661.83,-1.75
234.60,0.39,13662.45,-1.75
234.90,0.39,13664.95,-1.75
235.20,0.39,13665.98,-1.75
235.50,0.39,13667.60,-1.75
235.80,0.39,13668.86,-1.75
236.10,0.39,13670.16,-1.74
236.40,0.39,13672.74,-1.75
236.70,0.39,13673.88,-1.74
237.00,0.40,13677.13,-1.75
237.30,0.40,13677.13,-1.75
237.60,0.40,13679.74,-1.75
237.90,0.40,13679.83,-1.75
238.20,0.40,13683.68,-1.75
238.50,0.40,13682.90,-1.75
238.80,0.40,13685.70,-1.75
239.10,0.40,13685.45,-1.75
239.40,0.40,13688.87,-1.75
239.70,0.40,13688.75,-1.75
240.00,0.40,13690.34,-1.75
240.30,0.40,13691.52,-1.75
240.60,0.40,13692.93,-1.75
240.90,0.40,13695.40,-1.75
241.20,0.40,13696.46,-1.75
241.50,0.40,13698.32,-1.75
241.80,0.40,13698.55,-1.75
242.10,0.40,13702.44,-1.75
242.40,0.40,13702.07,-1.75
242.70,0.40,13704.32,-1.75
243.00,0.40,13703.95,-1.75
243.30,0.41,13707.29,-1.75
243.60,0.41,13707.86,-1.75
243.90,0.41,13710.37,-1.75
244.20,0.41,13709.76,-1.75
244.50,0.41,13711.81,-1.75
244.80,0.41,13713.10,-1.75
245.10,0.41,13715.33,-1.75
245.40,0.41,13715.43,-1.75
245.70,0.41,13717.04,-1.75
246.00,0.41,13718.84,-1.75
246.30,0.41,13720.64,-1.75
246.60,0.41,13723.05,-1.75
246.90,0.41,13722.28,-1.75
247.20,0.41,13724.15,-1.75
247.50,0.41,13725.35,-1.75
247.80,0.41,13728.45,-1.74
248.10,0.41,13727.81,-1.74
248.40,0.41,13729.91,-1.74
248.70,0.41,13730.24,-1.74
249.00,0.42,13733.09,-1.74
249.30,0.42,13733.15,-1.74
249.60,0.42,13734.27,-1.74
249.90,0.42,13735.42,-1.75
250.20,0.42,13735.99,-1.75
250.50,0.42,13738.68,-1.75
250.80,0.42,13738.81,-1.75
251.10,0.42,13740.85,-1.75
251.40,0.42,13740.64,-1.75
251.70,0.42,13743.61,-1.75
252.00,0.42,13744.36,-1.75
252.30,0.42,13746.27,-1.75
252.60,0.42,13745.62,-1.75
252.90,0.42,13748.64,-1.75
253.20,0.42,13748.62,-1.75
253.50,0.42,13750.66,-1.75
253.80,0.42,13750.73,-1.75
254.10,0.42,13752.16,-1.75
254.40,0.42,13753.69,-1.75
254.70,0.42,13754.58,-1.75
255.00,0.43,13755.29,-1.75
255.30,0.43,13755.84,-1.75
255.60,0.43,13757.43,-1.75
255.90,0.43,13757.75,-1.75
256.20,0.43,13760.48,-1.75
256.50,0.43,13760.59,-1.75
256.80,0.43,13762.73,-1.75
257.10,0.43,13762.47,-1.75
257.40,0.43,13765.44,-1.75
257.70,0.43,13765.53,-1.75
258.00,0.43,13767.19,-1.75
258.30,0.43,13767.48,-1.75
258.60,0.43,13768.84,-1.75
258.90,0.43,13769.96,-1.75
259.20,0.43,13770.97,-1.75
259.50,0.43,13771.72,-1.75
259.80,0.43,13771.74,-1.75
260.10,0.43,13774.05,-1.75
260.40,0.43,13774.87,-1.75
260.70,0.43,13776.58,-1.75
261.00,0.43,13776.02,-1.75
261.30,0.44,13778.33,-1.75
261.60,0.44,13779.66,-1.75
261.90,0.44,13781.24,-1.75
262.20,0.44,13780.92,-1.75
262.50,0.44,13782.86,-1.75
262.80,0.44,13783.17,-1.75
263.10,0.44,13785.30,-1.75
263.40,0.44,13784.36,-1.75
263.70,0.44,13785.80,-1.75
264.00,0.44,13785.74,-1.75
264.30,0.44,13788.29,-1.75
264.60,0.44,13789.17,-1.75
264.90,0.44,13788.86,-1.75
265.20,0.44,13789.45,-1.75
265.50,0.44,13791.13,-1.75
265.80,0.44,13793.23,-1.75
266.10,0.44,13792.45,-1.75
266.40,0.44,13793.76,-1.75
266.70,0.44,13794.08,-1.75
267.00,0.45,13796.94,-1.75
267.30,0.45,13796.73,-1.75
267.60,0.45,13797.93,-1.75
267.90,0.45,13797.68,-1.75
268.20,0.45,13798.89,-1.75
268.50,0.45,13800.19,-1.75
268.80,0.45,13800.80,-1.75
269.10,0.45,13800.56,-1.75
269.40,0.45,13801.92,-1.75
269.70,0.45,13803.31,-1.75
270.00,0.45,13803.52,-1.75
270.30,0.45,13804.47,-1.75
270.60,0.45,13804.13,-1.75
270.90,0.45,13805.60,-1.75
271.20,0.45,13806.65,-1.75
271.50,0.45,13807.85,-1.75
271.80,0.45,13807.77,-1.75
272.10,0.45,13809.75,-1.75
272.40,0.45,13808.64,-1.75
272.70,0.45,13811.77,-1.75
273.00,0.45,13810.52,-1.75
273.30,0.46,13812.33,-1.75
273.60,0.46,13812.78,-1.75
273.90,0.46,13813.93,-1.75
274.20,0.46,13814.47,-1.75
274.50,0.46,13814.29,-1.75
274.80,0.46,13815.73,-1.75
275.10,0.46,13816.06,-1.75
275.40,0.46,13817.78,-1.75
275.70,0.46,13817.16,-1.75
276.00,0.46,13818.61,-1.75
276.30,0.46,13818.24,-1.75
276.60,0.46,13820.47,-1.75
276.90,0.46,13820.40,-1.74
277.20,0.46,13821.71,-1.75
277.50,0.46,13821.99,-1.75
277.80,0.46,13822.35,-1.75
278.10,0.46,13823.29,-1.75
278.40,0.46,13824.06,-1.75
278.70,0.46,13823.80,-1.75
279.00,0.47,13824.71,-1.75
279.30,0.47,13824.70,-1.75
279.60,0.47,13826.52,-1.75
279.90,0.47,13827.20,-1.75
280.20,0.47,13826.83,-1.75
280.50,0.47,13827.42,-1.75
280.80,0.47,13827.69,-1.75
281.10,0.47,13829.91,-1.75
281.40,0.47,13829.14,-1.75
281.70,0.47,13830.41,-1.75
282.00,0.47,13830.00,-1.75
282.30,0.47,13832.57,-1.75
282.60,0.47,13831.55,-1.75
282.90,0.47,13832.55,-1.75
283.20,0.47,13832.01,-1.75
283.50,0.47,13833.22,-1.75
283.80,0.47,13834.09,-1.75
284.10,0.47,13833.96,-1.75
284.40,0.47,13834.66,-1.75
284.70,0.47,13834.56,-1.75
285.00,0.48,13836.38,-1.75
285.30,0.48,13835.76,-1.75
285.60,0.48,13837.40,-1.75
285.90,0.48,13836.14,-1.75
286.20,0.48,13838.30,-1.75
286.50,0.48,13838.09,-1.75
286.80,0.48,13839.29,-1.75
287.10,0.48,13838.17,-1.75
287.40,0.48,13839.87,-1.75
287.70,0.48,13839.63,-1.75
288.00,0.48,13840.63,-1.75
288.30,0.48,13840.38,-1.75
288.60,0.48,13840.47,-1.75
288.90,0.48,13841.12,-1.74
289.20,0.48,13841.75,-1.75
289.50,0.48,13842.57,-1.74
289.80,0.48,13842.33,-1.75
290.10,0.48,13843.84,-1.75
290.40,0.48,13843.25,-1.75
290.70,0.48,13845.13,-1.75
291.00,0.49,13843.69,-1.75
291.30,0.49,13845.21,-1.75
291.60,0.49,13843.94,-1.75
291.90,0.49,13846.51,-1.75
292.20,0.49,13844.82,-1.75
292.50,0.49,13846.15,-1.75
292.80,0.49,13845.56,-1.75
293.10,0.49,13846.21,-1.75
293.40,0.49,13847.18,-1.75
293.70,0.49,13846.58,-1.75
294.00,0.49,13847.81,-1.75
294.30,0.49,13847.11,-1.75
294.60,0.49,13848.19,-1.75
294.90,0.49,13847.83,-1.75
295.20,0.49,13849.04,-1.75
295.50,0.49,13847.95,-1.75
295.80,0.49,13849.12,-1.75
296.10,0.49,13847.92,-1.75
296.40,0.49,13850.28,-1.75
296.70,0.49,13848.34,-1.75
297.00,0.50,13849.95,-1.75
297.30,0.50,13848.75,-1.75
297.60,0.50,13850.47,-1.74
297.90,0.50,13849.83,-1.75
298.20,0.50,13850.06,-1.75
298.50,0.50,13850.00,-1.75
298.80,0.50,13850.66,-1.75
299.10,0.50,13851.72,-1.74
299.40,0.50,13850.21,-1.75
299.70,0.50,13850.98,-1.75
300.00,0.50,13849.30,-1.75
300.30,0.50,13852.14,-1.75
300.60,0.50,13850.93,-1.75
300.90,0.50,13852.12,-1.75
301.20,0.50,13850.69,-1.75
301.50,0.50,13851.53,-1.75
301.80,0.50,13851.14,-1.75
302.10,0.50,13851.88,-1.75
302.40,0.50,13851.24,-1.75
302.70,0.50,13852.25,-1.75
303.00,0.51,13852.70,-1.75
303.30,0.51,13852.42,-1.75
303.60,0.51,13852.43,-1.75
303.90,0.51,13851.04,-1.75
304.20,0.51,13852.04,-1.75
304.50,0.51,13851.90,-1.75
304.80,0.51,13853.17,-1.75
305.10,0.51,13851.38,-1.75
305.40,0.51,13853.06,-1.75
305.70,0.51,13852.12,-1.75
306.00,0.51,13853.27,-1.75
306.30,0.51,13851.08,-1.75
306.60,0.51,13852.17,-1.75
306.90,0.51,13851.33,-1.75
307.20,0.51,13853.11,-1.75
307.50,0.51,13852.19,-1.75
307.80,0.51,13851.47,-1.75
308.10,0.51,13851.48,-1.75
308.40,0.51,13851.44,-1.75
308.70,0.51,13852.05,-1.75
309.00,0.52,13850.65,-1.75
309.30,0.52,13851.30,-1.75
309.60,0.52,13849.85,-1.75
309.90,0.52,13851.04,-1.75
310.20,0.52,13850.96,-1.75
310.50,0.52,13850.96,-1.75
310.80,0.52,13849.64,-1.75
311.10,0.52,13850.52,-1.75
311.40,0.52,13849.88,-1.75
311.70,0.52,13850.14,-1.75
312.00,0.52,13849.13,-1.75
312.30,0.52,13848.90,-1.75
312.60,0.52,13848.46,-1.75
312.90,0.52,13848.21,-1.75
313.20,0.52,13847.91,-1.75
313.50,0.52,13847.87,-1.75
313.80,0.52,13848.07,-1.75
314.10,0.52,13847.32,-1.75
314.40,0.52,13847.56,-1.75
314.70,0.52,13846.28,-1.75
315.00,0.53,13847.24,-1.75
315.30,0.53,13846.04,-1.75
315.60,0.53,13846.98,-1.75
315.90,0.53,13845.46,-1.75
316.20,0.53,13845.46,-1.75
316.50,0.53,13844.18,-1.75
316.80,0.53,13844.69,-1.75
317.10,0.53,13844.13,-1.75
317.40,0.53,13844.15,-1.75
317.70,0.53,13842.77,-1.75
318.00,0.53,13842.78,-1.74
318.30,0.53,13843.32,-1.75
318.60,0.53,13842.08,-1.75
318.90,0.53,13842.23,-1.75
319.20,0.53,13840.03,-1.75
319.50,0.53,13841.90,-1.75
319.80,0.53,13840.06,-1.75
320.10,0.53,13840.95,-1.75
320.40,0.53,13838.34,-1.75
320.70,0.53,13838.06,-1.75
321.00,0.54,13836.76,-1.75
321.30,0.54,13837.61,-1.75
321.60,0.54,13836.19,-1.75
321.90,0.54,13835.56,-1.75
322.20,0.54,13834.39,-1.75
322.50,0.54,13834.31,-1.75
322.80,0.54,13834.09,-1.75
323.10,0.54,13831.94,-1.75
323.40,0.54,13832.80,-1.75
323.70,0.54,13831.59,-1.74
324.00,0.54,13831.92,-1.75
324.30,0.54,13829.77,-1.75
324.60,0.54,13829.54,-1.75
324.90,0.54,13827.21,-1.75
325.20,0.54,13828.81,-1.75
325.50,0.54,13826.41,-1.75
325.80,0.54,13825.77,-1.75
326.10,0.54,13824.00,-1.75
326.40,0.54,13823.86,-1.75
326.70,0.54,13823.19,-1.75
327.00,0.55,13821.63,-1.74
327.30,0.55,13820.24,-1.75
327.60,0.55,13819.27,-1.75
327.90,0.55,13819.53,-1.75
328.20,0.55,13818.17,-1.75
328.50,0.55,13816.89,-1.75
328.80,0.55,13815.39,-1.75
329.10,0.55,13814.70,-1.75
329.40,0.55,13813.16,-1.75
329.70,0.55,13812.77,-1.75
330.00,0.55,13810.13,-1.75
330.30,0.55,13809.62,-1.75
330.60,0.55,13807.94,-1.75
330.90,0.55,13807.87,-1.75
331.20,0.55,13805.14,-1.75
331.50,0.55,13803.87,-1.75
331.80,0.55,13802.01,-1.75
332.10,0.55,13801.83,-1.75
332.40,0.55,13800.00,-1.75
332.70,0.55,13798.19,-1.75
333.00,0.56,13796.44,-1.75
333.30,0.56,13794.63,-1.75
333.60,0.56,13794.06,-1.75
333.90,0.56,13791.89,-1.75
334.20,0.56,13790.79,-1.75
334.50,0.56,13788.05,-1.75
334.80,0.56,13787.99,-1.75
335.10,0.56,13784.84,-1.75
335.40,0.56,13783.95,-1.75
335.70,0.56,13780.71,-1.75
336.00,0.56,13779.64,-1.75
336.30,0.56,13777.87,-1.75
336.60,0.56,13775.74,-1.75
336.90,0.56,13773.07,-1.75
337.20,0.56,13770.23,-1.75
337.50,0.56,13767.70,-1.75
337.80,0.56,13766.16,-1.75
338.10,0.56,13764.30,-1.75
338.40,0.56,13761.28,-1.75
338.70,0.56,13759.96,-1.75
339.00,0.57,13756.66,-1.75
339.30,0.57,13755.40,-1.75
339.60,0.57,13751.04,-1.75
339.90,0.57,13749.41,-1.75
340.20,0.57,13746.20,-1.75
340.50,0.57,13745.28,-1.75
340.80,0.57,13740.91,-1.75
341.10,0.57,13737.70,-1.75
341.40,0.57,13733.73,-1.75
341.70,0.57,13731.84,-1.75
342.00,0.57,13729.41,-1.75
342.30,0.57,13725.58,-1.75
342.60,0.57,13722.21,-1.74
342.90,0.57,13717.38,-1.75
343.20,0.57,13715.94,-1.75
343.50,0.57,13712.07,-1.75
343.80,0.57,13708.19,-1.75
344.10,0.57,13703.65,-1.75
344.40,0.57,13700.64,-1.75
344.70,0.57,13696.45,-1.75
345.00,0.58,13693.28,-1.75
345.30,0.58,13687.37,-1.75
345.60,0.58,13683.59,-1.75
345.90,0.58,13679.14,-1.75
346.20,0.58,13674.79,-1.75
346.50,0.58,13669.17,-1.75
346.80,0.58,13664.24,-1.75
347.10,0.58,13659.44,-1.75
347.40,0.58,13654.85,-1.75
347.70,0.58,13650.44,-1.75
348.00,0.58,13643.98,-1.75
348.30,0.58,13638.96,-1.75
348.60,0.58,13632.45,-1.75
348.90,0.58,13629.03,-1.75
349.20,0.58,13620.62,-1.75
349.50,0.58,13615.45,-1.75
349.80,0.58,13607.31,-1.75
350.10,0.58,13602.84,-1.75
350.40,0.58,13595.12,-1.75
350.70,0.58,13587.73,-1.75
351.00,0.59,13579.88,-1.75
351.30,0.59,13573.10,-1.75
351.60,0.59,13565.64,-1.75
351.90,0.59,13557.29,-1.75
352.20,0.59,13548.86,-1.75
352.50,0.59,13539.13,-1.75
352.80,0.59,13531.88,-1.74
353.10,0.59,13521.35,-1.75
353.40,0.59,13510.49,-1.75
353.70,0.59,13496.11,-1.75
354.00,0.59,13481.61,-1.75
354.30,0.59,13432.94,-1.75
354.46,0.59,13219.53,-1.75
354.47,0.59,12085.29,-1.74
354.48,0.59,10088.40,-1.74
354.48,0.59,7813.26,-1.74